target_pos,cue_pos,condition,corrAns,resp.keys,no. of errors,resp.rt,trials.thisTrialN,trials.thisN,trials.thisIndex,intro.started,intro.stopped,instruction.started,instruction.stopped,instruction_resp.keys,instruction_resp.rt,instruction_resp.started,instruction_resp.stopped,fixation.started,fixation.stopped,cue.started,cue.stopped,target.started,target.stopped,resp.keys,resp.rt,resp.started,resp.stopped,participant,session,date,expName,psychopyVersion,frameRate,,,,,,,,,,19.89985434,21.91526041,21.88164663,None,space,3.926587832,21.88164663,None,,,,,,,,,,,C,1,2021_Apr_09_1126,Posner_Cueing_Task,2020.2.10,60.095586480.5,0.5,valid,right ,right,0,0.617702548,0,0,1,,,,,,,,,25.86625923,None,26.34990485,26.54944513,26.54944513,None,right,0.617702548,26.54944513,None,C,1,2021_Apr_09_1126,Posner_Cueing_Task,2020.2.10,60.09558648-0.5,-0.5,valid,left ,left,0,0.412448015,1,1,9,,,,,,,,,27.19952676,None,27.68393735,27.88384838,27.88384838,None,left,0.412448015,27.88384838,None,C,1,2021_Apr_09_1126,Posner_Cueing_Task,2020.2.10,60.09558648-0.5,0.5,invalid,left ,left,0,0.42046462,2,2,6,,,,,,,,,28.31574533,None,28.80109034,29.01650089,28.99975742,None,left,0.42046462,28.99975742,None,C,1,2021_Apr_09_1126,Posner_Cueing_Task,2020.2.10,60.09558648-0.5,-0.5,valid,left ,left,0,0.408710469,3,3,5,,,,,,,,,29.45048388,None,29.93292018,30.13234713,30.13234713,None,left,0.408710469,30.13234713,None,C,1,2021_Apr_09_1126,Posner_Cueing_Task,2020.2.10,60.095586480.5,-0.5,invalid,right ,right,0,0.43905745,4,4,2,,,,,,,,,30.56673261,None,31.0510753,31.25101752,31.25101752,None,right,0.43905745,31.25101752,None,C,1,2021_Apr_09_1126,Posner_Cueing_Task,2020.2.10,60.09558648-0.5,-0.5,valid,left,left,0,0.305738933,5,5,4,,,,,,,,,31.71700814,None,32.20133402,32.40136214,32.40136214,None,left,0.305738933,32.40136214,None,C,1,2021_Apr_09_1126,Posner_Cueing_Task,2020.2.10,60.09558648-0.5,0.5,invalid,left,left,0,0.384448728,6,6,3,,,,,,,,,32.73431079,None,33.21764545,33.43482281,33.41650195,None,left,0.384448728,33.41650195,None,C,1,2021_Apr_09_1126,Posner_Cueing_Task,2020.2.10,60.095586480.5,0.5,valid,right ,right,0,0.369420469,7,7,7,,,,,,,,,33.83482937,None,34.31808318,34.53474729,34.51643068,None,right,0.369420469,34.51643068,None,C,1,2021_Apr_09_1126,Posner_Cueing_Task,2020.2.10,60.095586480.5,-0.5,invalid,right ,right,0,0.445967493,8,8,8,,,,,,,,,34.91717777,None,35.39956303,35.60097269,35.60097269,None,right,0.445967493,35.60097269,None,C,1,2021_Apr_09_1126,Posner_Cueing_Task,2020.2.10,60.09558648-0.5,-0.5,valid,left,left,0,0.37261028,9,9,0,,,,,,,,,36.06657931,None,36.55054563,36.75120209,36.75120209,None,left,0.37261028,36.75120209,None,C,1,2021_Apr_09_1126,Posner_Cueing_Task,2020.2.10,60.09558648-0.5,-0.5,valid,left ,left,0,0.42170607,0,10,9,,,,,,,,,37.15045825,None,37.63416134,37.83517663,37.83517663,None,left,0.42170607,37.83517663,None,C,1,2021_Apr_09_1126,Posner_Cueing_Task,2020.2.10,60.09558648-0.5,0.5,invalid,left,left,0,0.391964003,1,11,3,,,,,,,,,38.28554629,None,38.76755185,38.96783584,38.96783584,None,left,0.391964003,38.96783584,None,C,1,2021_Apr_09_1126,Posner_Cueing_Task,2020.2.10,60.095586480.5,0.5,valid,right ,right,0,0.30348831,2,12,1,,,,,,,,,39.38531917,None,39.86784146,40.06827169,40.06827169,None,right,0.30348831,40.06827169,None,C,1,2021_Apr_09_1126,Posner_Cueing_Task,2020.2.10,60.095586480.5,-0.5,invalid,right ,right,0,0.429478545,3,13,8,,,,,,,,,40.40188491,None,40.88521822,41.08508834,41.08508834,None,right,0.429478545,41.08508834,None,C,1,2021_Apr_09_1126,Posner_Cueing_Task,2020.2.10,60.09558648-0.5,-0.5,valid,left,left,0,0.30611936,4,14,4,,,,,,,,,41.53431185,None,42.01854778,42.21853705,42.21853705,None,left,0.30611936,42.21853705,None,C,1,2021_Apr_09_1126,Posner_Cueing_Task,2020.2.10,60.09558648-0.5,0.5,invalid,left ,left,0,0.445126015,5,15,6,,,,,,,,,42.55113857,None,43.03541413,43.23534636,43.23534636,None,left,0.445126015,43.23534636,None,C,1,2021_Apr_09_1126,Posner_Cueing_Task,2020.2.10,60.09558648-0.5,-0.5,valid,left ,left,0,0.362423582,6,16,5,,,,,,,,,43.70204756,None,44.18550811,44.38505757,44.38505757,None,left,0.362423582,44.38505757,None,C,1,2021_Apr_09_1126,Posner_Cueing_Task,2020.2.10,60.09558648-0.5,-0.5,valid,left,left,0,0.358231652,7,17,0,,,,,,,,,44.76891266,None,45.25206166,45.4521009,45.4521009,None,left,0.358231652,45.4521009,None,C,1,2021_Apr_09_1126,Posner_Cueing_Task,2020.2.10,60.095586480.5,0.5,valid,right ,right,0,0.26623682,8,18,7,,,,,,,,,45.83416452,None,46.31730286,46.51721799,46.51721799,None,right,0.26623682,46.51721799,None,C,1,2021_Apr_09_1126,Posner_Cueing_Task,2020.2.10,60.095586480.5,-0.5,invalid,right ,right,0,0.451101604,9,19,2,,,,,,,,,46.80088139,None,47.28375803,47.48430865,47.48430865,None,right,0.451101604,47.48430865,None,C,1,2021_Apr_09_1126,Posner_Cueing_Task,2020.2.10,60.09558648-0.5,-0.5,valid,left,left,0,0.355406146,0,20,4,,,,,,,,,47.96737153,None,48.45186837,48.65082402,48.65082402,None,left,0.355406146,48.65082402,None,C,1,2021_Apr_09_1126,Posner_Cueing_Task,2020.2.10,60.095586480.5,0.5,valid,right ,right,0,0.328838155,1,21,7,,,,,,,,,49.03494235,None,49.51862207,49.71830658,49.71830658,None,right,0.328838155,49.71830658,None,C,1,2021_Apr_09_1126,Posner_Cueing_Task,2020.2.10,60.095586480.5,-0.5,invalid,right ,right,0,0.455016388,2,22,8,,,,,,,,,50.06796335,None,50.55265483,50.75218357,50.75218357,None,right,0.455016388,50.75218357,None,C,1,2021_Apr_09_1126,Posner_Cueing_Task,2020.2.10,60.09558648-0.5,-0.5,valid,left,left,0,0.325143935,3,23,0,,,,,,,,,51.23427627,None,51.71894494,51.91889082,51.91889082,None,left,0.325143935,51.91889082,None,C,1,2021_Apr_09_1126,Posner_Cueing_Task,2020.2.10,60.09558648-0.5,-0.5,valid,left ,left,0,0.347264132,4,24,5,,,,,,,,,52.26867081,None,52.75218043,52.95184297,52.95184297,None,left,0.347264132,52.95184297,None,C,1,2021_Apr_09_1126,Posner_Cueing_Task,2020.2.10,60.095586480.5,0.5,valid,right ,right,0,0.32027896,5,25,1,,,,,,,,,53.31852791,None,53.80275345,54.00283089,54.00283089,None,right,0.32027896,54.00283089,None,C,1,2021_Apr_09_1126,Posner_Cueing_Task,2020.2.10,60.09558648-0.5,0.5,invalid,left ,left,0,0.313706908,6,26,6,,,,,,,,,54.35244752,None,54.83559993,55.0363632,55.0363632,None,left,0.313706908,55.0363632,None,C,1,2021_Apr_09_1126,Posner_Cueing_Task,2020.2.10,60.095586480.5,-0.5,invalid,right ,right,0,0.329737517,7,27,2,,,,,,,,,55.36937022,None,55.85201679,56.05230345,56.05230345,None,right,0.329737517,56.05230345,None,C,1,2021_Apr_09_1126,Posner_Cueing_Task,2020.2.10,60.09558648-0.5,0.5,invalid,left,left,0,0.330812495,8,28,3,,,,,,,,,56.40092626,None,56.88447373,57.08499097,57.08499097,None,left,0.330812495,57.08499097,None,C,1,2021_Apr_09_1126,Posner_Cueing_Task,2020.2.10,60.09558648-0.5,-0.5,valid,left ,left,0,0.355093393,9,29,9,,,,,,,,,57.43513322,None,57.91812111,58.11866622,58.11866622,None,left,0.355093393,58.11866622,None,C,1,2021_Apr_09_1126,Posner_Cueing_Task,2020.2.10,60.095586480.5,0.5,valid,right ,right,0,0.460980305,0,30,1,,,,,,,,,58.50162673,None,58.98495294,59.18599406,59.18599406,None,right,0.460980305,59.18599406,None,C,1,2021_Apr_09_1126,Posner_Cueing_Task,2020.2.10,60.09558648-0.5,-0.5,valid,left,left,0,0.354924165,1,31,4,,,,,,,,,59.6682015,None,60.15282155,60.35292101,60.35292101,None,left,0.354924165,60.35292101,None,C,1,2021_Apr_09_1126,Posner_Cueing_Task,2020.2.10,60.095586480.5,-0.5,invalid,right ,right,0,0.31717907,2,32,2,,,,,,,,,60.73665301,None,61.21901329,61.41881683,61.41881683,None,right,0.31717907,61.41881683,None,C,1,2021_Apr_09_1126,Posner_Cueing_Task,2020.2.10,60.09558648-0.5,0.5,invalid,left ,left,0,0.319395394,3,33,6,,,,,,,,,61.75255191,None,62.23616015,62.43541699,62.43541699,None,left,0.319395394,62.43541699,None,C,1,2021_Apr_09_1126,Posner_Cueing_Task,2020.2.10,60.09558648-0.5,-0.5,valid,left ,left,0,0.359382738,4,34,5,,,,,,,,,62.78461851,None,63.26972464,63.47025538,63.47025538,None,left,0.359382738,63.47025538,None,C,1,2021_Apr_09_1126,Posner_Cueing_Task,2020.2.10,60.095586480.5,-0.5,invalid,right ,right,0,0.37477014,5,35,8,,,,,,,,,63.85253002,None,64.33656877,64.53688777,64.53688777,None,right,0.37477014,64.53688777,None,C,1,2021_Apr_09_1126,Posner_Cueing_Task,2020.2.10,60.09558648-0.5,-0.5,valid,left,left,0,0.379332722,6,36,0,,,,,,,,,64.93577027,None,65.42025435,65.6201045,65.6201045,None,left,0.379332722,65.6201045,None,C,1,2021_Apr_09_1126,Posner_Cueing_Task,2020.2.10,60.095586480.5,0.5,valid,right ,right,0,0.364166702,7,37,7,,,,,,,,,66.01992228,None,66.50385401,66.70355181,66.70355181,None,right,0.364166702,66.70355181,None,C,1,2021_Apr_09_1126,Posner_Cueing_Task,2020.2.10,60.09558648-0.5,0.5,invalid,left,left,0,0.32641428,8,38,3,,,,,,,,,67.08607057,None,67.56924768,67.77017228,67.77017228,None,left,0.32641428,67.77017228,None,C,1,2021_Apr_09_1126,Posner_Cueing_Task,2020.2.10,60.09558648-0.5,-0.5,valid,left ,left,0,0.351894492,9,39,9,,,,,,,,,68.11960459,None,68.60329722,68.80239338,68.80239338,None,left,0.351894492,68.80239338,None,C,1,2021_Apr_09_1126,Posner_Cueing_Task,2020.2.10,60.09558648-0.5,-0.5,valid,left,left,0,0.402221338,0,40,4,,,,,,,,,69.18726777,None,69.66982696,69.87026637,69.87026637,None,left,0.402221338,69.87026637,None,C,1,2021_Apr_09_1126,Posner_Cueing_Task,2020.2.10,60.095586480.5,-0.5,invalid,right ,right,0,0.346176037,1,41,2,,,,,,,,,70.303012,None,70.78549857,70.98601928,70.98601928,None,right,0.346176037,70.98601928,None,C,1,2021_Apr_09_1126,Posner_Cueing_Task,2020.2.10,60.095586480.5,0.5,valid,right ,right,0,0.421614107,2,42,7,,,,,,,,,71.35197353,None,71.83585582,72.03552849,72.03552849,None,right,0.421614107,72.03552849,None,C,1,2021_Apr_09_1126,Posner_Cueing_Task,2020.2.10,60.09558648-0.5,-0.5,valid,left,left,0,0.311668435,3,43,0,,,,,,,,,72.48552776,None,72.97041099,73.17046843,73.17046843,None,left,0.311668435,73.17046843,None,C,1,2021_Apr_09_1126,Posner_Cueing_Task,2020.2.10,60.09558648-0.5,0.5,invalid,left,left,0,0.34473641,4,44,3,,,,,,,,,73.50379978,None,73.98645828,74.18731844,74.18731844,None,left,0.34473641,74.18731844,None,C,1,2021_Apr_09_1126,Posner_Cueing_Task,2020.2.10,60.09558648-0.5,-0.5,valid,left ,left,0,0.51800214,5,45,5,,,,,,,,,74.55320747,None,75.03740758,75.23707776,75.23707776,None,left,0.51800214,75.23707776,None,C,1,2021_Apr_09_1126,Posner_Cueing_Task,2020.2.10,60.09558648-0.5,0.5,invalid,left ,left,0,0.442571696,6,46,6,,,,,,,,,75.7866258,None,76.27021125,76.47036192,76.47036192,None,left,0.442571696,76.47036192,None,C,1,2021_Apr_09_1126,Posner_Cueing_Task,2020.2.10,60.095586480.5,0.5,valid,right ,right,0,0.348581914,7,47,1,,,,,,,,,76.93601057,None,77.41951859,77.61943515,77.61943515,None,right,0.348581914,77.61943515,None,C,1,2021_Apr_09_1126,Posner_Cueing_Task,2020.2.10,60.09558648-0.5,-0.5,valid,left ,left,0,0.348396637,8,48,9,,,,,,,,,77.98741699,None,78.47119013,78.68601889,78.66946356,None,left,0.348396637,78.66946356,None,C,1,2021_Apr_09_1126,Posner_Cueing_Task,2020.2.10,60.095586480.5,-0.5,invalid,right ,right,0,0.361799421,9,49,8,,,,,,,,,79.03622179,None,79.5191533,79.71992733,79.71992733,None,right,0.361799421,79.71992733,None,C,1,2021_Apr_09_1126,Posner_Cueing_Task,2020.2.10,60.09558648