target_pos,cue_pos,conditions ,corrAns,resp.keys,no. of errors,resp.rt,trials.thisRepN,trials.thisTrialN,trials.thisN,trials.thisIndex,intro.started,intro.stopped,instruction.started,instruction.stopped,instruction_resp.keys,instruction_resp.rt,instruction_resp.started,instruction_resp.stopped,fixation.started,fixation.stopped,cue.started,cue.stopped,target.started,target.stopped,resp.keys,resp.rt,resp.started,resp.stopped,participant,session,date,expName,psychopyVersion,frameRate,,,,,,,,,,,23.83109299,25.8311074,25.81399731,None,space,18.79942262,25.81399731,None,,,,,,,,,,,D,1,2021_Apr_09_1148,Posner_Cueing_Task,2020.2.10,60.17553927-0.5,0.5,invalid,left,left,0,0.59706476,0,0,0,3,,,,,,,,,44.66462883,None,45.13193357,45.33156488,45.33156488,None,left,0.59706476,45.33156488,None,D,1,2021_Apr_09_1148,Posner_Cueing_Task,2020.2.10,60.175539270.5,-0.5,invalid,right ,right,0,0.286410256,0,1,1,8,,,,,,,,,45.94788625,None,46.4313682,46.63129561,46.63129561,None,right,0.286410256,46.63129561,None,D,1,2021_Apr_09_1148,Posner_Cueing_Task,2020.2.10,60.17553927-0.5,-0.5,valid,left ,left,0,0.362662377,0,2,2,5,,,,,,,,,46.94767964,None,47.43256943,47.6491157,47.63193798,None,left,0.362662377,47.63193798,None,D,1,2021_Apr_09_1148,Posner_Cueing_Task,2020.2.10,60.175539270.5,0.5,valid,right ,right,0,0.30068337,0,3,3,7,,,,,,,,,48.01598621,None,48.49923203,48.69971896,48.69971896,None,right,0.30068337,48.69971896,None,D,1,2021_Apr_09_1148,Posner_Cueing_Task,2020.2.10,60.175539270.5,0.5,valid,right ,right,0,0.281337317,0,4,4,1,,,,,,,,,49.03143226,None,49.51523968,49.71510389,49.71510389,None,right,0.281337317,49.71510389,None,D,1,2021_Apr_09_1148,Posner_Cueing_Task,2020.2.10,60.17553927-0.5,0.5,valid,left ,left,0,0.325035305,0,5,5,6,,,,,,,,,50.01476723,None,50.49895373,50.69947656,50.69947656,None,left,0.325035305,50.69947656,None,D,1,2021_Apr_09_1148,Posner_Cueing_Task,2020.2.10,60.17553927-0.5,-0.5,valid,left ,left,0,0.31851373,0,6,6,9,,,,,,,,,51.04883517,None,51.53279942,51.73281009,51.73281009,None,left,0.31851373,51.73281009,None,D,1,2021_Apr_09_1148,Posner_Cueing_Task,2020.2.10,60.17553927-0.5,-0.5,valid,left,left,0,0.306156455,0,7,7,4,,,,,,,,,52.08233126,None,52.56596937,52.76613566,52.76613566,None,left,0.306156455,52.76613566,None,D,1,2021_Apr_09_1148,Posner_Cueing_Task,2020.2.10,60.17553927-0.5,-0.5,valid,left,left,0,0.323357018,0,8,8,0,,,,,,,,,53.09946021,None,53.58224916,53.78303335,53.78303335,None,left,0.323357018,53.78303335,None,D,1,2021_Apr_09_1148,Posner_Cueing_Task,2020.2.10,60.175539270.5,-0.5,invalid,right ,right,0,0.312991893,0,9,9,2,,,,,,,,,54.13301525,None,54.61622017,54.81625011,54.81625011,None,right,0.312991893,54.81625011,None,D,1,2021_Apr_09_1148,Posner_Cueing_Task,2020.2.10,60.17553927-0.5,-0.5,valid,left ,left,0,0.401012075,1,0,10,5,,,,,,,,,55.14965682,None,55.63305578,55.8331192,55.8331192,None,left,0.401012075,55.8331192,None,D,1,2021_Apr_09_1148,Posner_Cueing_Task,2020.2.10,60.17553927-0.5,-0.5,valid,left ,left,0,0.30217052,1,1,11,9,,,,,,,,,56.26636841,None,56.74969905,56.94992058,56.94992058,None,left,0.30217052,56.94992058,None,D,1,2021_Apr_09_1148,Posner_Cueing_Task,2020.2.10,60.17553927-0.5,-0.5,valid,left,left,0,0.326578343,1,2,12,0,,,,,,,,,57.28319265,None,57.76593103,57.96561741,57.96561741,None,left,0.326578343,57.96561741,None,D,1,2021_Apr_09_1148,Posner_Cueing_Task,2020.2.10,60.175539270.5,-0.5,invalid,right ,right,0,0.306550972,1,3,13,2,,,,,,,,,58.3166121,None,58.79982148,58.99957034,58.99957034,None,right,0.306550972,58.99957034,None,D,1,2021_Apr_09_1148,Posner_Cueing_Task,2020.2.10,60.175539270.5,-0.5,invalid,right ,right,0,0.327256287,1,4,14,8,,,,,,,,,59.33265428,None,59.81662452,60.01686491,60.01686491,None,right,0.327256287,60.01686491,None,D,1,2021_Apr_09_1148,Posner_Cueing_Task,2020.2.10,60.175539270.5,0.5,valid,right ,right,0,0.307850528,1,5,15,1,,,,,,,,,60.36669056,None,60.85013007,61.05020296,61.05020296,None,right,0.307850528,61.05020296,None,D,1,2021_Apr_09_1148,Posner_Cueing_Task,2020.2.10,60.175539270.5,0.5,valid,right ,right,0,0.27321748,1,6,16,7,,,,,,,,,61.38334947,None,61.86651725,62.06674017,62.06674017,None,right,0.27321748,62.06674017,None,D,1,2021_Apr_09_1148,Posner_Cueing_Task,2020.2.10,60.17553927-0.5,-0.5,valid,left,left,0,0.271518877,1,7,17,4,,,,,,,,,62.36665464,None,62.8502279,63.05035895,63.05035895,None,left,0.271518877,63.05035895,None,D,1,2021_Apr_09_1148,Posner_Cueing_Task,2020.2.10,60.17553927-0.5,0.5,invalid,left ,left,0,0.301291829,1,8,18,6,,,,,,,,,63.35048737,None,63.83167402,64.03172874,64.03172874,None,left,0.301291829,64.03172874,None,D,1,2021_Apr_09_1148,Posner_Cueing_Task,2020.2.10,60.17553927-0.5,0.5,invalid,left,left,0,0.303238727,1,9,19,3,,,,,,,,,64.34960937,None,64.83338606,65.03367325,65.03367325,None,left,0.303238727,65.03367325,None,D,1,2021_Apr_09_1148,Posner_Cueing_Task,2020.2.10,60.17553927-0.5,-0.5,valid,left ,left,0,0.286348383,2,0,20,9,,,,,,,,,65.36743671,None,65.85053538,66.05052805,66.05052805,None,left,0.286348383,66.05052805,None,D,1,2021_Apr_09_1148,Posner_Cueing_Task,2020.2.10,60.17553927-0.5,-0.5,valid,left,left,0,0.27715884,2,1,21,0,,,,,,,,,66.36694987,None,66.85058039,67.05062391,67.05062391,None,left,0.27715884,67.05062391,None,D,1,2021_Apr_09_1148,Posner_Cueing_Task,2020.2.10,60.175539270.5,0.5,valid,right ,right,0,0.22799761,2,2,22,7,,,,,,,,,67.35055075,None,67.83220346,68.03380408,68.03380408,None,right,0.22799761,68.03380408,None,D,1,2021_Apr_09_1148,Posner_Cueing_Task,2020.2.10,60.17553927-0.5,-0.5,valid,left ,left,0,0.248051288,2,3,23,5,,,,,,,,,68.28372377,None,68.76719644,68.96673779,68.96673779,None,left,0.248051288,68.96673779,None,D,1,2021_Apr_09_1148,Posner_Cueing_Task,2020.2.10,60.17553927-0.5,0.5,invalid,left,right,1,0.251054442,2,4,24,3,,,,,,,,,69.23391096,None,69.71728234,69.91744925,69.91744925,None,right,0.251054442,69.91744925,None,D,1,2021_Apr_09_1148,Posner_Cueing_Task,2020.2.10,60.175539270.5,-0.5,invalid,right ,right,0,0.82524482,2,5,25,2,,,,,,,,,70.20069293,None,70.68329361,70.88422017,70.88422017,None,right,0.82524482,70.88422017,None,D,1,2021_Apr_09_1148,Posner_Cueing_Task,2020.2.10,60.17553927-0.5,0.5,invalid,left ,left,0,0.25397799,2,6,26,6,,,,,,,,,71.73340635,None,72.2175038,72.41760603,72.41760603,None,left,0.25397799,72.41760603,None,D,1,2021_Apr_09_1148,Posner_Cueing_Task,2020.2.10,60.175539270.5,0.5,invalid,right ,left,1,0.28276587,2,7,27,1,,,,,,,,,72.70065878,None,73.18451692,73.38385094,73.38385094,None,left,0.28276587,73.38385094,None,D,1,2021_Apr_09_1148,Posner_Cueing_Task,2020.2.10,60.17553927-0.5,-0.5,valid,left,left,0,0.30980003,2,8,28,4,,,,,,,,,73.68339358,None,74.16768384,74.36765569,74.36765569,None,left,0.30980003,74.36765569,None,D,1,2021_Apr_09_1148,Posner_Cueing_Task,2020.2.10,60.175539270.5,-0.5,invalid,right ,right,1,0.255488127,2,9,29,8,,,,,,,,,74.70082297,None,75.18438549,75.3848016,75.3848016,None,right,0.255488127,75.3848016,None,D,1,2021_Apr_09_1148,Posner_Cueing_Task,2020.2.10,60.17553927-0.5,-0.5,valid,left,left,0,0.342193755,3,0,30,4,,,,,,,,,75.66796888,None,76.1508001,76.35113178,76.35113178,None,left,0.342193755,76.35113178,None,D,1,2021_Apr_09_1148,Posner_Cueing_Task,2020.2.10,60.17553927-0.5,-0.5,valid,left,left,0,0.36751818,3,1,31,0,,,,,,,,,76.71666797,None,77.20114701,77.40064322,77.40064322,None,left,0.36751818,77.40064322,None,D,1,2021_Apr_09_1148,Posner_Cueing_Task,2020.2.10,60.175539270.5,0.5,valid,right ,right,0,0.23177238,3,2,32,7,,,,,,,,,77.80142238,None,78.28469801,78.48451834,78.48451834,None,right,0.23177238,78.48451834,None,D,1,2021_Apr_09_1148,Posner_Cueing_Task,2020.2.10,60.17553927-0.5,0.5,invalid,left ,left,0,0.293152285,3,3,33,6,,,,,,,,,78.73456551,None,79.21810484,79.41804106,79.41804106,None,left,0.293152285,79.41804106,None,D,1,2021_Apr_09_1148,Posner_Cueing_Task,2020.2.10,60.17553927-0.5,-0.5,valid,left ,left,0,0.29805162,3,4,34,5,,,,,,,,,79.73456853,None,80.21827544,80.41819104,80.41819104,None,left,0.29805162,80.41819104,None,D,1,2021_Apr_09_1148,Posner_Cueing_Task,2020.2.10,60.175539270.5,-0.5,invalid,right ,right,0,0.26882707,3,5,35,2,,,,,,,,,80.73489785,None,81.21823371,81.41827028,81.41827028,None,right,0.26882707,81.41827028,None,D,1,2021_Apr_09_1148,Posner_Cueing_Task,2020.2.10,60.17553927-0.5,0.5,invalid,left,left,0,0.266335303,3,6,36,3,,,,,,,,,81.71769769,None,82.20100877,82.4016956,82.4016956,None,left,0.266335303,82.4016956,None,D,1,2021_Apr_09_1148,Posner_Cueing_Task,2020.2.10,60.175539270.5,0.5,valid,right ,right,0,0.257022223,3,7,37,1,,,,,,,,,82.70143632,None,83.18510009,83.38503165,83.38503165,None,right,0.257022223,83.38503165,None,D,1,2021_Apr_09_1148,Posner_Cueing_Task,2020.2.10,60.175539270.5,-0.5,invalid,right ,right,0,0.30161437,3,8,38,8,,,,,,,,,83.66790824,None,84.15157408,84.35122685,84.35122685,None,right,0.30161437,84.35122685,None,D,1,2021_Apr_09_1148,Posner_Cueing_Task,2020.2.10,60.17553927-0.5,-0.5,valid,left ,left,0,0.27310153,3,9,39,9,,,,,,,,,84.68445014,None,85.16846924,85.36785468,85.36785468,None,left,0.27310153,85.36785468,None,D,1,2021_Apr_09_1148,Posner_Cueing_Task,2020.2.10,60.17553927-0.5,-0.5,valid,left,left,0,0.303627963,4,0,40,4,,,,,,,,,85.66855969,None,86.15125895,86.35130783,86.35130783,None,left,0.303627963,86.35130783,None,D,1,2021_Apr_09_1148,Posner_Cueing_Task,2020.2.10,60.17553927-0.5,0.5,invalid,left ,left,0,0.299443997,4,1,41,6,,,,,,,,,86.68537397,None,87.1685386,87.36848192,87.36848192,None,left,0.299443997,87.36848192,None,D,1,2021_Apr_09_1148,Posner_Cueing_Task,2020.2.10,60.175539270.5,-0.5,invalid,right ,right,0,0.27792373,4,2,42,8,,,,,,,,,87.68535327,None,88.16873476,88.36873412,88.36873412,None,right,0.27792373,88.36873412,None,D,1,2021_Apr_09_1148,Posner_Cueing_Task,2020.2.10,60.175539270.5,0.5,valid,right ,left,1,0.301467677,4,3,43,7,,,,,,,,,88.6686783,None,89.15216749,89.35216022,89.35216022,None,left,0.301467677,89.35216022,None,D,1,2021_Apr_09_1148,Posner_Cueing_Task,2020.2.10,60.17553927-0.5,0.5,invalid,left,left,0,0.290738932,4,4,44,3,,,,,,,,,89.68550553,None,90.16825837,90.36896475,90.36896475,None,left,0.290738932,90.36896475,None,D,1,2021_Apr_09_1148,Posner_Cueing_Task,2020.2.10,60.17553927-0.5,-0.5,valid,left,left,0,0.24377023,4,5,45,0,,,,,,,,,90.68533716,None,91.16834554,91.36892211,91.36892211,None,left,0.24377023,91.36892211,None,D,1,2021_Apr_09_1148,Posner_Cueing_Task,2020.2.10,60.175539270.5,0.5,valid,right ,right,0,0.215944463,4,6,46,1,,,,,,,,,91.63549989,None,92.11842546,92.31875851,92.31875851,None,right,0.215944463,92.31875851,None,D,1,2021_Apr_09_1148,Posner_Cueing_Task,2020.2.10,60.17553927-0.5,-0.5,valid,left ,left,0,0.213450565,4,7,47,5,,,,,,,,,92.55186012,None,93.03534973,93.23505855,93.23505855,None,left,0.213450565,93.23505855,None,D,1,2021_Apr_09_1148,Posner_Cueing_Task,2020.2.10,60.175539270.5,-0.5,invalid,right ,right,0,0.26808447,4,8,48,2,,,,,,,,,93.46896464,None,93.95245486,94.15233529,94.15233529,None,right,0.26808447,94.15233529,None,D,1,2021_Apr_09_1148,Posner_Cueing_Task,2020.2.10,60.17553927-0.5,-0.5,valid,left ,left,0,0.227818933,4,9,49,9,,,,,,,,,94.45230037,None,94.93588165,95.13566535,95.13566535,None,left,0.227818933,95.13566535,None,D,1,2021_Apr_09_1148,Posner_Cueing_Task,2020.2.10,60.17553927