target_pos,cue_pos,conditions,corrAns,resp.keys,no. of errors,resp.rt,trials.thisRepN,trials.thisTrialN,trials.thisN,trials.thisIndex,intro.started,intro.stopped,instruction.started,instruction.stopped,instruction_resp.keys,instruction_resp.rt,instruction_resp.started,instruction_resp.stopped,fixation.started,fixation.stopped,cue.started,cue.stopped,target.started,target.stopped,resp.keys,resp.rt,resp.started,resp.stopped,participant,session,date,expName,psychopyVersion,frameRate,,,,,,,,,,,14.38958368,16.38821477,16.38821477,None,space,12.75770246,16.38821477,None,,,,,,,,,,,F,1,2021_Apr_09_1802,Posner_Cueing_Task,2020.2.10,60.042116660.5,-0.5,invalid,right ,right,0,0.484283427,0,0,0,2,,,,,,,,,29.20612835,None,29.67474703,29.87473454,29.87473454,None,right,0.484283427,29.87473454,None,F,1,2021_Apr_09_1802,Posner_Cueing_Task,2020.2.10,60.04211666-0.5,0.5,invalid,left,left,0,0.361778343,0,1,1,3,,,,,,,,,30.39112844,None,30.87349722,31.07417146,31.07417146,None,left,0.361778343,31.07417146,None,F,1,2021_Apr_09_1802,Posner_Cueing_Task,2020.2.10,60.042116660.5,0.5,valid,right ,right,0,0.344811358,0,2,2,7,,,,,,,,,31.45806669,None,31.94124564,32.14115281,32.14115281,None,right,0.344811358,32.14115281,None,F,1,2021_Apr_09_1802,Posner_Cueing_Task,2020.2.10,60.042116660.5,-0.5,invalid,right ,right,0,0.37848311,0,3,3,8,,,,,,,,,32.50813966,None,32.99143348,33.19137998,33.19137998,None,right,0.37848311,33.19137998,None,F,1,2021_Apr_09_1802,Posner_Cueing_Task,2020.2.10,60.04211666-0.5,-0.5,valid,left,left,0,0.344367348,0,4,4,0,,,,,,,,,33.59047016,None,34.07490579,34.27360519,34.27360519,None,left,0.344367348,34.27360519,None,F,1,2021_Apr_09_1802,Posner_Cueing_Task,2020.2.10,60.04211666-0.5,0.5,invalid,left ,left,0,0.41848797,0,5,5,6,,,,,,,,,34.6414143,None,35.12464445,35.32441722,35.32441722,None,left,0.41848797,35.32441722,None,F,1,2021_Apr_09_1802,Posner_Cueing_Task,2020.2.10,60.042116660.5,0.5,valid,right ,right,0,0.370172195,0,6,6,1,,,,,,,,,35.77482738,None,36.25852013,36.45872823,36.45872823,None,right,0.370172195,36.45872823,None,F,1,2021_Apr_09_1802,Posner_Cueing_Task,2020.2.10,60.04211666-0.5,-0.5,valid,left ,left,0,0.314286276,0,7,7,5,,,,,,,,,36.85750334,None,37.34183093,37.54158199,37.54158199,None,left,0.314286276,37.54158199,None,F,1,2021_Apr_09_1802,Posner_Cueing_Task,2020.2.10,60.04211666-0.5,-0.5,valid,left ,left,0,0.417199765,0,8,8,9,,,,,,,,,37.87416864,None,38.3585484,38.55847208,38.55847208,None,left,0.417199765,38.55847208,None,F,1,2021_Apr_09_1802,Posner_Cueing_Task,2020.2.10,60.04211666-0.5,-0.5,valid,left,left,0,0.426521397,0,9,9,4,,,,,,,,,39.0085115,None,39.4913099,39.69119148,39.69119148,None,left,0.426521397,39.69119148,None,F,1,2021_Apr_09_1802,Posner_Cueing_Task,2020.2.10,60.04211666-0.5,0.5,invalid,left,left,0,0.43584643,1,0,10,3,,,,,,,,,40.14170005,None,40.62530616,40.8246854,40.8246854,None,left,0.43584643,40.8246854,None,F,1,2021_Apr_09_1802,Posner_Cueing_Task,2020.2.10,60.04211666-0.5,-0.5,valid,left,left,0,0.442247615,1,1,11,4,,,,,,,,,41.29085246,None,41.77507695,41.97538256,41.97538256,None,left,0.442247615,41.97538256,None,F,1,2021_Apr_09_1802,Posner_Cueing_Task,2020.2.10,60.04211666-0.5,-0.5,valid,left ,left,0,0.394113222,1,2,12,9,,,,,,,,,42.44153153,None,42.92548649,43.12548578,43.12548578,None,left,0.394113222,43.12548578,None,F,1,2021_Apr_09_1802,Posner_Cueing_Task,2020.2.10,60.042116660.5,-0.5,invalid,right ,right,0,0.45449703,1,3,13,2,,,,,,,,,43.54213339,None,44.02511965,44.22542429,44.22542429,None,right,0.45449703,44.22542429,None,F,1,2021_Apr_09_1802,Posner_Cueing_Task,2020.2.10,60.042116660.5,0.5,valid,right ,right,0,0.345310885,1,4,14,1,,,,,,,,,44.70716169,None,45.19216269,45.39200927,45.39200927,None,right,0.345310885,45.39200927,None,F,1,2021_Apr_09_1802,Posner_Cueing_Task,2020.2.10,60.042116660.5,-0.5,invalid,right ,right,0,0.369306453,1,5,15,8,,,,,,,,,45.75776917,None,46.24267714,46.44200853,46.44200853,None,right,0.369306453,46.44200853,None,F,1,2021_Apr_09_1802,Posner_Cueing_Task,2020.2.10,60.04211666-0.5,-0.5,valid,left ,left,0,0.36325279,1,6,16,5,,,,,,,,,46.84249007,None,47.32532772,47.52509807,47.52509807,None,left,0.36325279,47.52509807,None,F,1,2021_Apr_09_1802,Posner_Cueing_Task,2020.2.10,60.042116660.5,0.5,valid,right ,right,0,0.298836995,1,7,17,7,,,,,,,,,47.90882331,None,48.39267392,48.592742,48.592742,None,right,0.298836995,48.592742,None,F,1,2021_Apr_09_1802,Posner_Cueing_Task,2020.2.10,60.04211666-0.5,-0.5,valid,left,left,0,0.310405652,1,8,18,0,,,,,,,,,48.90913462,None,49.39245486,49.5928819,49.5928819,None,left,0.310405652,49.5928819,None,F,1,2021_Apr_09_1802,Posner_Cueing_Task,2020.2.10,60.04211666-0.5,0.5,invalid,left ,left,0,0.43946785,1,9,19,6,,,,,,,,,49.9259676,None,50.40886977,50.60869945,50.60869945,None,left,0.43946785,50.60869945,None,F,1,2021_Apr_09_1802,Posner_Cueing_Task,2020.2.10,60.042116660.5,0.5,valid,right ,right,0,0.366572463,2,0,20,1,,,,,,,,,51.07596821,None,51.55934118,51.75955622,51.75955622,None,right,0.366572463,51.75955622,None,F,1,2021_Apr_09_1802,Posner_Cueing_Task,2020.2.10,60.04211666-0.5,-0.5,valid,left ,left,0,0.356315663,2,1,21,5,,,,,,,,,52.15882222,None,52.64277685,52.84271446,52.84271446,None,left,0.356315663,52.84271446,None,F,1,2021_Apr_09_1802,Posner_Cueing_Task,2020.2.10,60.04211666-0.5,-0.5,valid,left,left,0,0.36154049,2,2,22,0,,,,,,,,,53.22616323,None,53.70940162,53.90943983,53.90943983,None,left,0.36154049,53.90943983,None,F,1,2021_Apr_09_1802,Posner_Cueing_Task,2020.2.10,60.042116660.5,-0.5,invalid,right ,right,0,0.476765975,2,3,23,8,,,,,,,,,54.29283488,None,54.77608435,54.97627332,54.97627332,None,right,0.476765975,54.97627332,None,F,1,2021_Apr_09_1802,Posner_Cueing_Task,2020.2.10,60.04211666-0.5,0.5,invalid,left ,left,0,0.46163828,2,4,24,6,,,,,,,,,55.47560857,None,55.95951269,56.15925368,56.15925368,None,left,0.46163828,56.15925368,None,F,1,2021_Apr_09_1802,Posner_Cueing_Task,2020.2.10,60.04211666-0.5,0.5,invalid,left,left,0,0.437540668,2,5,25,3,,,,,,,,,56.64263438,None,57.12544912,57.3264287,57.3264287,None,left,0.437540668,57.3264287,None,F,1,2021_Apr_09_1802,Posner_Cueing_Task,2020.2.10,60.04211666-0.5,-0.5,valid,left,left,0,0.416414855,2,6,26,4,,,,,,,,,57.79316736,None,58.276163,58.47648236,58.47648236,None,left,0.416414855,58.47648236,None,F,1,2021_Apr_09_1802,Posner_Cueing_Task,2020.2.10,60.042116660.5,0.5,valid,right ,right,0,0.369590993,2,7,27,7,,,,,,,,,58.90884795,None,59.39322937,59.60817495,59.5921167,None,right,0.369590993,59.5921167,None,F,1,2021_Apr_09_1802,Posner_Cueing_Task,2020.2.10,60.042116660.5,-0.5,invalid,right ,right,0,0.45406819,2,8,28,2,,,,,,,,,59.99332236,None,60.47675131,60.67673157,60.67673157,None,right,0.45406819,60.67673157,None,F,1,2021_Apr_09_1802,Posner_Cueing_Task,2020.2.10,60.04211666-0.5,-0.5,valid,left ,left,0,0.337532878,2,9,29,9,,,,,,,,,61.16030566,None,61.64341222,61.84324009,61.84324009,None,left,0.337532878,61.84324009,None,F,1,2021_Apr_09_1802,Posner_Cueing_Task,2020.2.10,60.04211666-0.5,-0.5,valid,left,left,0,0.3591635,3,0,30,4,,,,,,,,,62.21010475,None,62.69337965,62.89352686,62.89352686,None,left,0.3591635,62.89352686,None,F,1,2021_Apr_09_1802,Posner_Cueing_Task,2020.2.10,60.04211666-0.5,0.5,invalid,left ,left,0,0.356303028,3,1,31,6,,,,,,,,,63.27676022,None,63.75933995,63.96030801,63.96030801,None,left,0.356303028,63.96030801,None,F,1,2021_Apr_09_1802,Posner_Cueing_Task,2020.2.10,60.04211666-0.5,-0.5,valid,left ,left,0,0.3787954,3,2,32,9,,,,,,,,,64.34267674,None,64.82665032,65.02675726,65.02675726,None,left,0.3787954,65.02675726,None,F,1,2021_Apr_09_1802,Posner_Cueing_Task,2020.2.10,60.042116660.5,0.5,valid,right ,right,0,0.327963627,3,3,33,7,,,,,,,,,65.42695503,None,65.91022625,66.11041762,66.11041762,None,right,0.327963627,66.11041762,None,F,1,2021_Apr_09_1802,Posner_Cueing_Task,2020.2.10,60.042116660.5,-0.5,invalid,right ,right,0,0.440589235,3,4,34,8,,,,,,,,,66.45939324,None,66.94361234,67.14379441,67.14379441,None,right,0.440589235,67.14379441,None,F,1,2021_Apr_09_1802,Posner_Cueing_Task,2020.2.10,60.042116660.5,0.5,valid,right ,right,0,0.457087807,3,5,35,1,,,,,,,,,67.61029653,None,68.09360564,68.29332033,68.29332033,None,right,0.457087807,68.29332033,None,F,1,2021_Apr_09_1802,Posner_Cueing_Task,2020.2.10,60.04211666-0.5,0.5,invalid,left,left,0,0.39691242,3,6,36,3,,,,,,,,,68.77610346,None,69.26065675,69.46047536,69.46047536,None,left,0.39691242,69.46047536,None,F,1,2021_Apr_09_1802,Posner_Cueing_Task,2020.2.10,60.042116660.5,-0.5,invalid,right ,right,0,0.456644087,3,7,37,2,,,,,,,,,69.87730726,None,70.36073241,70.56070242,70.56070242,None,right,0.456644087,70.56070242,None,F,1,2021_Apr_09_1802,Posner_Cueing_Task,2020.2.10,60.04211666-0.5,-0.5,valid,left,left,0,0.373871098,3,8,38,0,,,,,,,,,71.04399635,None,71.52768197,71.72738909,71.72738909,None,left,0.373871098,71.72738909,None,F,1,2021_Apr_09_1802,Posner_Cueing_Task,2020.2.10,60.04211666-0.5,-0.5,valid,left ,left,0,0.429422183,3,9,39,5,,,,,,,,,72.12719322,None,72.61087984,72.8107648,72.8107648,None,left,0.429422183,72.8107648,None,F,1,2021_Apr_09_1802,Posner_Cueing_Task,2020.2.10,60.04211666-0.5,-0.5,valid,left ,left,0,0.438108237,4,0,40,5,,,,,,,,,73.26063424,None,73.74327878,73.94395406,73.94395406,None,left,0.438108237,73.94395406,None,F,1,2021_Apr_09_1802,Posner_Cueing_Task,2020.2.10,60.042116660.5,-0.5,invalid,right ,right,0,0.411583457,4,1,41,8,,,,,,,,,74.41069476,None,74.8946195,75.09450304,75.09450304,None,right,0.411583457,75.09450304,None,F,1,2021_Apr_09_1802,Posner_Cueing_Task,2020.2.10,60.042116660.5,0.5,valid,right ,right,0,0.424011872,4,2,42,1,,,,,,,,,75.52765167,None,76.01096349,76.21098107,76.21098107,None,right,0.424011872,76.21098107,None,F,1,2021_Apr_09_1802,Posner_Cueing_Task,2020.2.10,60.042116660.5,-0.5,invalid,right ,right,0,0.423302937,4,3,43,2,,,,,,,,,76.6605759,None,77.14454881,77.34373806,77.34373806,None,right,0.423302937,77.34373806,None,F,1,2021_Apr_09_1802,Posner_Cueing_Task,2020.2.10,60.04211666-0.5,-0.5,valid,left,left,0,0.347982472,4,4,44,0,,,,,,,,,77.79423125,None,78.27797055,78.47801272,78.47801272,None,left,0.347982472,78.47801272,None,F,1,2021_Apr_09_1802,Posner_Cueing_Task,2020.2.10,60.04211666-0.5,-0.5,valid,left ,left,0,0.352095268,4,5,45,9,,,,,,,,,78.84443997,None,79.32786928,79.52668022,79.52668022,None,left,0.352095268,79.52668022,None,F,1,2021_Apr_09_1802,Posner_Cueing_Task,2020.2.10,60.04211666-0.5,0.5,invalid,left,left,0,0.433102158,4,6,46,3,,,,,,,,,79.91127435,None,80.39480153,80.59474147,80.59474147,None,left,0.433102158,80.59474147,None,F,1,2021_Apr_09_1802,Posner_Cueing_Task,2020.2.10,60.04211666-0.5,-0.5,valid,left,left,0,0.52713099,4,7,47,4,,,,,,,,,81.06131328,None,81.5447175,81.74472865,81.74472865,None,left,0.52713099,81.74472865,None,F,1,2021_Apr_09_1802,Posner_Cueing_Task,2020.2.10,60.042116660.5,0.5,valid,right ,right,0,0.38850302,4,8,48,7,,,,,,,,,82.29488426,None,82.77825672,82.97814189,82.97814189,None,right,0.38850302,82.97814189,None,F,1,2021_Apr_09_1802,Posner_Cueing_Task,2020.2.10,60.04211666-0.5,0.5,invalid,left ,left,0,0.367959705,4,9,49,6,,,,,,,,,83.3946808,None,83.87822113,84.07863155,84.07863155,None,left,0.367959705,84.07863155,None,F,1,2021_Apr_09_1802,Posner_Cueing_Task,2020.2.10,60.04211666